Folder: SPEIS-analysis

Note: README.md
# SPEIS-analysis
Jupyter notebook leveraging impedance.py to simplify the batch analysis of staircase potential electrochemical impedance spectroscopy (SPEIS) data. Using the first cell, the filename of the mpt file located in the same directory as the notebook can be specified. Further parameters can be set using the input prompts in the notebook.

## Dependencies
The notebook has been developed using the following environment
* Python (3.8.8)
* impedance.py (1.2.2)
* NumPy (1.19.2)
* Matplotlib (3.3.4)
* Pandas (1.2.4)
* IPython (7.22.0)

File: Hem1_EIS_dark.mpt
EC-Lab ASCII FILE
Nb header lines : 62

Staircase Potentio Electrochemical Impedance Spectroscopy (Mott-Schottky)

Run on channel : 1 (SN 3784)
User :
Electrode connection : standard
Ewe ctrl range : min = -10.00 V, max = 10.00 V
Ewe,I filtering : 50 kHz
Safety Limits :
	Do not start on E overload
Channel : Grounded
Acquisition started on : 03/11/2021 12:38:42
Saved on :
	File : Hem1_EIS-back_dark.mpr
	Directory : Z:\group\Alexander\Hematite\Electrochemistry\210311\
	Host : 192.168.10.100
Device : SP-300 (SN 0654)
Address : 192.168.10.103
EC-Lab for windows v11.27 (software)
Internet server v11.25 (firmware)
Command interpretor v11.27 (firmware)
Electrode material :
Initial state :
Electrolyte :
Comments :
Cable : standard
Electrode surface area : 0.001 cm²
Characteristic mass : 0.001 g
Equivalent Weight : 0.000 g/eq.
Density : 0.000 g/cm3
Record EIS quality indicators
Cycle Definition : Charge/Discharge alternance
Multi Sine          Single sine
Ei (V)              -0.4000
vs.                 Ref
ts (h:m:s)          0:00:5.0000
record              1
dI                  0.000
unit dI             mA
dt (s)              0.100
fi                  1.000
unit fi             MHz
ff                  0.200
unit ff             Hz
Nd                  6
Points              per decade
spacing             Logarithmic
Va (mV)             25.0
pw                  0.10
Na                  2
corr                0
E range min (V)     -10.000
E range max (V)     10.000
I Range             Auto
Bandwidth           8
Ef (V)              0.6000
vs.                 Ref
N                   40

freq/Hz	Re(Z)/Ohm	-Im(Z)/Ohm	|Z|/Ohm	Phase(Z)/deg	time/s	<Ewe>/V	<I>/mA	Cs/µF	Cs-2/µF-2	Cp/µF	Cp-2/µF-2	cycle number	I Range	|Ewe|/V	|I|/A	(Q-Qo)/mA.h	THD Ewe/%	NSD Ewe/%	NSR Ewe/%	THD I/%	NSD I/%	NSR I/%	Re(Y)/Ohm-1	Im(Y)/Ohm-1	|Y|/Ohm-1	Phase(Y)/deg	<I>/mA	dq/mA.h
0.0000000E+000	0.0000000E+000	0.0000000E+000	0.0000000E+000	0.0000000E+000	0.3806	-0.400186	-0.00162728	0.0000000E+000	0.0000000E+000	0.0000000E+000	0.0000000E+000	1	41	0.0000000E+000	0.0000000E+000	-4.28019e-08	0.120614	0.0268086	0.232847	33.9361	80.2111	34.59	0.0000000E+000	0.0000000E+000	0.0000000E+000	0.0000000E+000	0.000000000000000E+000	-4.28019e-08
0.0000000E+000	0.0000000E+000	0.0000000E+000	0.0000000E+000	0.0000000E+000	100.502	-0.375197	-0.000777193	0.0000000E+000	0.0000000E+000	0.0000000E+000	0.0000000E+000	2	42	0.0000000E+000	0.0000000E+000	2.28391e-05	0.126699	0.0272175	0.145802	10.1258	0.441502	8.41704	0.0000000E+000	0.0000000E+000	0.0000000E+000	0.0000000E+000	-0.000914262	-2.56501e-08
0.0000000E+000	0.0000000E+000	0.0000000E+000	0.0000000E+000	0.0000000E+000	199.538	-0.350195	-0.000394339	0.0000000E+000	0.0000000E+000	0.0000000E+000	0.0000000E+000	3	43	0.0000000E+000	0.0000000E+000	6.83643e-05	0.105131	0.0279032	0.147089	8.98618	0.17065	10.8861	0.0000000E+000	0.0000000E+000	0.0000000E+000	0.0000000E+000	-0.000452092	-1.26837e-08
206.786	63.2319	97.7007	116.377	-57.0891	314.589	-0.325214	0.00175792	7.87772	0.0161138	5.55212	0.0324402	4	39	0.0253786	0.000218071	0.000202897	0.163006	0.0285896	1.1418	2.99384	0.0366225	1.21961	0.00466873	0.00721374	0.00859273	57.0891	0.00174427	3.45313e-07
0.0000000E+000	0.0000000E+000	0.0000000E+000	0.0000000E+000	0.0000000E+000	483.885	-0.275183	0.000299064	0.0000000E+000	0.0000000E+000	0.0000000E+000	0.0000000E+000	6	43	0.0000000E+000	0.0000000E+000	0.000280201	0.106482	0.0248672	0.156405	3.94331	0.227618	16.0093	0.0000000E+000	0.0000000E+000	0.0000000E+000	0.0000000E+000	0.000235744	8.31651e-09
0.0000000E+000	0.0000000E+000	0.0000000E+000	0.0000000E+000	0.0000000E+000	582.108	-0.250225	-2.45641e-06	0.0000000E+000	0.0000000E+000	0.0000000E+000	0.0000000E+000	7	43	0.0000000E+000	0.0000000E+000	0.000347689	0.119986	0.0269108	0.152438	3.98696	0.109461	17.2063	0.0000000E+000	0.0000000E+000	0.0000000E+000	0.0000000E+000	-2.75454e-06	-7.72801e-11
680031	29.8435	0.792674	29.854	-1.52148	682.608	-0.224828	0.0195147	0.295255	11.4711	0.000208152	2.30801e+07	8	38	0.026032	0.000871975	0.000437414	-1	-1	-1	-1	-1	-1	0.0334845	0.000889385	0.0334963	1.52148	0.019867	4.21065e-06
95.6424	99.8822	291.818	308.439	-71.1052	795.259	-0.199885	0.0002168	5.7024	0.0307528	5.1044	0.0383805	9	40	0.0253691	8.22499e-05	0.00057745	0.128591	0.0258347	1.08983	3.05607	0.019179	0.7934	0.00104991	0.00306743	0.00324214	71.1052	0.000647933	1.70553e-07
0.0000000E+000	0.0000000E+000	0.0000000E+000	0.0000000E+000	0.0000000E+000	972.038	-0.14992	0.000370502	0.0000000E+000	0.0000000E+000	0.0000000E+000	0.0000000E+000	11	43	0.0000000E+000	0.0000000E+000	0.000649944	0.104687	0.0367047	0.148526	4.36554	0.0742137	6.75593	0.0000000E+000	0.0000000E+000	0.0000000E+000	0.0000000E+000	0.000263198	7.31104e-09
0.0000000E+000	0.0000000E+000	0.0000000E+000	0.0000000E+000	0.0000000E+000	1079.6	-0.124911	6.76076e-05	0.0000000E+000	0.0000000E+000	0.0000000E+000	0.0000000E+000	12	43	0.0000000E+000	0.0000000E+000	0.000710699	0.101957	0.0341329	0.148702	4.95806	0.0778147	7.17199	0.0000000E+000	0.0000000E+000	0.0000000E+000	0.0000000E+000	6.58551e-05	1.82931e-09
314467	30.0947	0.706796	30.103	-1.34538	1191.04	-0.0998604	0.019442	0.716063	1.95028	0.000394747	6.41745e+06	13	38	0.0264927	0.000880067	0.00079101	-1	-1	-1	-1	-1	-1	0.0332101	0.000779962	0.0332193	1.34538	0.0191555	4.0598e-06
44.2217	165.048	801.546	818.362	-78.3647	1313.27	-0.0749059	0.000225368	4.4901	0.0496007	4.30746	0.053896	14	40	0.0252222	3.08204e-05	0.00090659	0.120869	0.0370614	1.12288	2.59686	0.0459742	1.98113	0.000246445	0.00119684	0.00122195	78.3647	3.23159e-05	6.25288e-09
0.0000000E+000	0.0000000E+000	0.0000000E+000	0.0000000E+000	0.0000000E+000	1491.82	-0.0249323	8.51925e-05	0.0000000E+000	0.0000000E+000	0.0000000E+000	0.0000000E+000	16	43	0.0000000E+000	0.0000000E+000	0.000974055	0.142095	0.0357574	0.152698	5.52353	0.254146	10.3329	0.0000000E+000	0.0000000E+000	0.0000000E+000	0.0000000E+000	9.13691e-05	2.53803e-09
0.0000000E+000	0.0000000E+000	0.0000000E+000	0.0000000E+000	0.0000000E+000	1596.21	4.29977e-05	3.57871e-05	0.0000000E+000	0.0000000E+000	0.0000000E+000	0.0000000E+000	17	43	0.0000000E+000	0.0000000E+000	0.00104544	0.118089	0.0471573	0.160221	5.35013	0.412146	11.5255	0.0000000E+000	0.0000000E+000	0.0000000E+000	0.0000000E+000	3.86964e-05	1.08565e-09
145422	30.2909	0.933919	30.3053	-1.76597	1703.62	0.0251947	0.0197346	1.17187	0.728178	0.00111292	807373	18	38	0.0262798	0.00086717	0.00114078	-1	-1	-1	-1	-1	-1	0.0329819	0.00101689	0.0329976	1.76597	0.0197438	4.18454e-06
20.4515	286.639	2071.98	2091.72	-82.1237	1820.34	0.0501415	5.3124e-05	3.75584	0.07089	3.68531	0.0736293	19	41	0.0251831	1.20394e-05	0.00124388	0.108377	0.022721	1.12189	2.10083	0.00832034	2.16501	6.55134e-05	0.000473566	0.000478076	82.1237	0.000258037	6.63049e-08
0.0000000E+000	0.0000000E+000	0.0000000E+000	0.0000000E+000	0.0000000E+000	1992.69	0.100088	5.53943e-05	0.0000000E+000	0.0000000E+000	0.0000000E+000	0.0000000E+000	21	43	0.0000000E+000	0.0000000E+000	0.00130794	0.119457	0.0167631	0.152518	3.58252	0.291006	16.7282	0.0000000E+000	0.0000000E+000	0.0000000E+000	0.0000000E+000	5.65526e-05	1.58661e-09
0.0000000E+000	0.0000000E+000	0.0000000E+000	0.0000000E+000	0.0000000E+000	2093.19	0.125086	4.85101e-05	0.0000000E+000	0.0000000E+000	0.0000000E+000	0.0000000E+000	22	43	0.0000000E+000	0.0000000E+000	0.00137996	0.135158	0.0244778	0.156622	3.38064	0.233141	17.8091	0.0000000E+000	0.0000000E+000	0.0000000E+000	0.0000000E+000	4.76596e-05	1.33712e-09
67250.6	30.5458	1.62637	30.5891	-3.04776	2200.24	0.150188	0.0190618	1.45514	0.47227	0.00411349	59098.9	23	38	0.0258679	0.000845658	0.00147675	0.106339	0.0449516	1.26272	0.117592	0.0413388	2.02754	0.0326452	0.00173815	0.0326914	3.04776	0.0188009	3.98465e-06
9.45821	523.876	5142.11	5168.73	-84.1828	2315.39	0.175063	6.40159e-05	3.27242	0.0933816	3.2388	0.0953302	24	41	0.0251349	4.86288e-06	0.00156955	0.123591	0.0318258	1.10836	1.71397	0.0845658	4.6055	1.96092e-05	0.000192475	0.000193471	84.1828	8.70512e-05	1.71606e-08
0.0000000E+000	0.0000000E+000	0.0000000E+000	0.0000000E+000	0.0000000E+000	2483.55	0.22508	6.77351e-05	0.0000000E+000	0.0000000E+000	0.0000000E+000	0.0000000E+000	26	43	0.0000000E+000	0.0000000E+000	0.00163722	0.0972766	0.0385346	0.154817	2.22687	0.234968	21.3356	0.0000000E+000	0.0000000E+000	0.0000000E+000	0.0000000E+000	6.79917e-05	1.88866e-09
0.0000000E+000	0.0000000E+000	0.0000000E+000	0.0000000E+000	0.0000000E+000	2583.99	0.250046	4.372e-05	0.0000000E+000	0.0000000E+000	0.0000000E+000	0.0000000E+000	27	43	0.0000000E+000	0.0000000E+000	0.00170237	0.117426	0.0151293	0.154474	2.03842	0.123254	21.9085	0.0000000E+000	0.0000000E+000	0.0000000E+000	0.0000000E+000	4.76577e-05	1.32382e-09
31101.5	30.8744	3.17705	31.0374	-5.87521	2692.36	0.275136	0.0172482	1.6107	0.385454	0.0168769	3510.88	28	38	0.0253021	0.000815213	0.0018026	0.111966	0.038794	1.28258	0.136662	0.0884446	2.12855	0.0320499	0.00329802	0.0322192	5.87521	0.0171648	3.63808e-06
4.3743	1132.76	12285	12337.1	-84.7318	2808.58	0.300084	7.61762e-05	2.96168	0.114005	2.93671	0.115952	29	42	0.025121	2.03622e-06	0.00189665	0.157395	0.0254221	0.570467	1.43631	0.0233221	4.30128	7.44245e-06	8.07142e-05	8.10566e-05	84.7318	3.8141e-05	1.78763e-08
0.0000000E+000	0.0000000E+000	0.0000000E+000	0.0000000E+000	0.0000000E+000	2974.35	0.350053	9.84832e-05	0.0000000E+000	0.0000000E+000	0.0000000E+000	0.0000000E+000	31	43	0.0000000E+000	0.0000000E+000	0.00196587	0.106702	0.0504931	0.161372	1.4775	0.21095	23.1436	0.0000000E+000	0.0000000E+000	0.0000000E+000	0.0000000E+000	0.000106325	2.983e-09
0.0000000E+000	0.0000000E+000	0.0000000E+000	0.0000000E+000	0.0000000E+000	3074.78	0.375049	0.000103818	0.0000000E+000	0.0000000E+000	0.0000000E+000	0.0000000E+000	32	43	0.0000000E+000	0.0000000E+000	0.00203454	0.128902	0.0371283	0.155991	1.38311	0.278506	24.1265	0.0000000E+000	0.0000000E+000	0.0000000E+000	0.0000000E+000	0.000118983	3.30509e-09
14381.7	31.4177	6.56079	32.0954	-11.7953	3184.29	0.400182	0.0231939	1.68676	0.351472	0.0704826	201.297	33	38	0.0258188	0.000804438	0.00216223	0.134154	0.0452399	1.27044	0.153825	0.0816754	2.13337	0.0304992	0.006369	0.0311571	11.7953	0.0231503	4.06417e-06
2.02344	3429.65	28068.7	28277.5	-83.0337	3303.12	0.42511	0.000130771	2.80226	0.127346	2.76104	0.131177	34	42	0.0250944	8.87434e-07	0.00225526	0.129387	0.0263264	0.387593	1.06674	0.0751101	8.29788	4.28913e-06	3.51028e-05	3.53638e-05	83.0337	0.000187495	1.17488e-07
0.0000000E+000	0.0000000E+000	0.0000000E+000	0.0000000E+000	0.0000000E+000	3465.22	0.475173	0.000209053	0.0000000E+000	0.0000000E+000	0.0000000E+000	0.0000000E+000	36	43	0.0000000E+000	0.0000000E+000	0.00233639	0.109646	0.0337497	0.160365	5.93246	0.226541	22.3336	0.0000000E+000	0.0000000E+000	0.0000000E+000	0.0000000E+000	0.000226444	6.35302e-09
0.0000000E+000	0.0000000E+000	0.0000000E+000	0.0000000E+000	0.0000000E+000	3567.13	0.50012	0.000296298	0.0000000E+000	0.0000000E+000	0.0000000E+000	0.0000000E+000	37	43	0.0000000E+000	0.0000000E+000	0.00241511	0.10112	0.0409741	0.158782	9.5865	0.938402	18.7613	0.0000000E+000	0.0000000E+000	0.0000000E+000	0.0000000E+000	0.000343146	9.53185e-09
6792.04	32.2429	13.6246	35.0034	-22.9071	3674.7	0.525094	0.0251584	1.71987	0.338072	0.260571	14.7282	38	38	0.0253404	0.000723942	0.00258047	0.131802	0.0440309	1.26959	0.162978	0.0727613	2.35245	0.0263157	0.01112	0.0285687	22.9071	0.023493	4.4711e-06
0.935569	20907.6	15541.1	26051	-36.6243	3796.69	0.550113	0.000864049	10.9462	0.00834595	3.89564	0.0658935	39	42	0.0250496	9.6156e-07	0.00269094	0.0985448	0.0248418	0.280652	15.0152	0.503961	7.88326	3.08075e-05	2.29e-05	3.83863e-05	36.6243	0.000821117	1.04823e-06
0.0000000E+000	0.0000000E+000	0.0000000E+000	0.0000000E+000	0.0000000E+000	3944.81	0.600057	0.00281364	0.0000000E+000	0.0000000E+000	0.0000000E+000	0.0000000E+000	41	42	0.0000000E+000	0.0000000E+000	0.00282916	0.135338	0.0437177	0.156561	17.6541	0.350787	4.04439	0.0000000E+000	0.0000000E+000	0.0000000E+000	0.0000000E+000	0.00268988	7.47188e-08
0.200044	11056.5	2109.45	11256	-10.8015	4037.22	0.600081	0.00275354	377.161	7.02986e-06	13.2464	0.00569906	41	41	0.0250821	2.22834e-06	0.00298277	0.120791	0.0320298	0.153801	15.214	0.406627	1.60079	8.72677e-05	1.66496e-05	8.88417e-05	10.8015	0.00276119	1.5883e-05